session_trial_number,phase,sanity_kind,sanity_label,attempt_number,adaptive_completed_trials,requested_soa_ms,lead_led,flash_duration_ms,flash_rgb_level,expected_response,response,sanity_correct,button,rt_ms,timed_out,invalid,updated_staircase,threshold50_ms,threshold75_ms,jnd_ms,guess_rate,lapse_rate,ci50_width_ms,ci50_low_ms,ci50_high_ms,ci75_width_ms,ci75_low_ms,ci75_high_ms,entropy_normalized,early_stop_active
1,practice,,,1,,90,flash1,10,255,,yes,,blue,406,False,False,,,,,,,,,,,,,,
2,practice,,,2,,75,flash1,10,255,,yes,,blue,321,False,False,,,,,,,,,,,,,,
3,practice,,,3,,0,simultaneous,10,255,,no,,red,505,False,False,,,,,,,,,,,,,,
4,practice,,,4,,45,flash1,10,255,,yes,,blue,456,False,False,,,,,,,,,,,,,,
5,practice,,,5,,15,flash2,10,255,,no,,red,502,False,False,,,,,,,,,,,,,,
6,practice,,,6,,105,flash1,10,255,,yes,,blue,325,False,False,,,,,,,,,,,,,,
7,practice,,,7,,30,flash2,10,255,,yes,,blue,377,False,False,,,,,,,,,,,,,,
8,practice,,,8,,60,flash1,10,255,,yes,,blue,329,False,False,,,,,,,,,,,,,,
9,main,,,1,1,50,flash2,10,255,,yes,,blue,385,False,False,True,25.605115511551155,29.74891623622739,4.143800724676236,0.009999999999999998,0.009999999999999998,53.5954423575619,0.2752525252525254,53.870694882814426,54.0,5.143800724676237,59.14380072467624,0.8826418150914577,False
10,main,,,2,2,25,flash1,10,255,,no,,red,1164,False,False,True,37.99485080700276,42.138651531679,4.14380072467624,0.010000000000000002,0.010000000000000002,39.69323266130805,18.195854466456375,57.88908712776443,39.0,23.143800724676236,62.14380072467624,0.8155798440600107,False
11,main,,,3,3,38,flash1,10,255,,yes,,blue,374,False,False,True,30.995218310555046,35.139019035231286,4.143800724676238,0.009999999999999998,0.009999999999999998,28.795882211966052,15.374521462187749,44.1704036741538,29.000000000000004,20.143800724676236,49.14380072467624,0.7389851005474847,False
12,main,,,4,4,31,flash1,10,255,,yes,,blue,904,False,False,True,26.543273832898734,30.68707455757497,4.143800724676238,0.01,0.01,25.346090919205032,11.79289994785694,37.13899086706197,26.000000000000004,16.143800724676236,42.14380072467624,0.6996976755082841,False
13,main,,,5,5,26,flash2,10,255,,yes,,blue,395,False,False,True,22.85224359184996,26.996044316526195,4.143800724676238,0.010000000000000002,0.010000000000000002,25.794864580281132,6.4520002739176086,32.24686485419874,25.000000000000004,12.143800724676236,37.14380072467624,0.6813302087645048,False
14,sanity,zero,0 ms control,1,5,0,simultaneous,10,255,no,no,True,red,459,False,False,False,22.85224359184996,26.996044316526195,4.143800724676238,0.010000000000000002,0.010000000000000002,25.794864580281132,6.4520002739176086,32.24686485419874,25.000000000000004,12.143800724676236,37.14380072467624,0.6813302087645048,False
15,main,,,6,6,21,flash2,10,255,,yes,,blue,773,False,False,True,18.920599833001862,23.0644005576781,4.143800724676238,0.010000000000000002,0.010000000000000002,25.982580230874518,2.0497252423662804,28.032305473240797,25.000000000000004,7.143800724676237,32.14380072467624,0.6816389254711271,False
16,main,,,7,7,16,flash1,10,255,,no,,red,500,False,False,True,21.460974665343514,25.604775390019753,4.14380072467624,0.010000000000000002,0.010000000000000002,16.56698484673052,12.19758999348279,28.76457484021331,16.024999999999995,17.118800724676245,33.14380072467624,0.6160573700046914,False
17,main,,,8,8,21,flash2,10,255,,yes,,blue,1242,False,False,True,19.510214206329824,23.65401493100606,4.143800724676236,0.009999999999999998,0.009999999999999998,15.85524342357877,10.334137938173882,26.189381361752652,16.0,15.143800724676236,31.143800724676236,0.6032076939409321,False
18,main,,,9,9,19,flash1,10,255,,no,,red,1112,False,False,True,21.088980153687753,25.232780878363993,4.14380072467624,0.010000000000000005,0.010000000000000005,13.057362190418159,13.899432703194003,26.956794893612162,14.000000000000004,18.143800724676236,32.14380072467624,0.5674727902900424,False
19,main,,,10,10,21,flash2,10,255,,no,,red,1359,False,False,True,22.326831857454884,26.47063258213112,4.143800724676238,0.01,0.01,11.904052819922725,15.87767696261286,27.781729782535585,12.000000000000004,20.143800724676236,32.14380072467624,0.5469724988279377,False
20,sanity,easy,high-interval control,2,10,50,flash1,10,255,yes,yes,True,blue,369,False,False,False,22.326831857454884,26.47063258213112,4.143800724676238,0.01,0.01,11.904052819922725,15.87767696261286,27.781729782535585,12.000000000000004,20.143800724676236,32.14380072467624,0.5469724988279377,False
21,main,,,11,11,22,flash2,10,255,,yes,,blue,659,False,False,True,21.226980314804294,25.370781039480534,4.14380072467624,0.010000000000000002,0.010000000000000002,11.156277218855612,15.088345148219984,26.244622367075596,11.0,20.143800724676236,31.143800724676236,0.5328887527344985,False
22,main,,,12,12,21,flash1,10,255,,yes,,blue,407,False,False,True,20.258337948392988,24.402138673069224,4.143800724676236,0.01,0.01,10.631602976373427,14.300831329096825,24.932434305470252,10.0,19.143800724676236,29.143800724676236,0.5220332290102018,False
23,main,,,13,13,20,flash2,10,255,,no,,red,1240,False,False,True,21.092488874074757,25.236289598750993,4.143800724676236,0.009999999999999995,0.009999999999999995,10.012266310373295,15.545717041165858,25.557983351539153,10.0,20.143800724676236,30.143800724676236,0.5074753776475386,False
24,main,,,14,14,21,flash1,10,255,,yes,,blue,1610,False,False,True,20.323256421663284,24.46705714633952,4.143800724676236,0.01,0.01,9.527750824681391,15.032334432251233,24.560085256932624,10.0,19.143800724676236,29.143800724676236,0.49823812010126983,False
25,main,,,15,15,20,flash2,10,255,,yes,,blue,524,False,False,True,19.59195467162921,23.73575539630545,4.14380072467624,0.010000000000000002,0.010000000000000002,9.279609042995922,14.362479930255962,23.642088973251884,9.0,19.143800724676236,28.143800724676236,0.4904830722480758,False
26,sanity,zero,0 ms control,3,15,0,simultaneous,10,255,no,no,True,red,461,False,False,False,19.59195467162921,23.73575539630545,4.14380072467624,0.010000000000000002,0.010000000000000002,9.279609042995922,14.362479930255962,23.642088973251884,9.0,19.143800724676236,28.143800724676236,0.4904830722480758,False
27,main,,,16,16,19,flash2,10,255,,yes,,blue,1291,False,False,True,18.884904727980608,23.028705452656844,4.143800724676237,0.01,0.01,8.951501731646207,13.81489878829846,22.766400519944668,9.0,18.143800724676236,27.143800724676236,0.4839540954056194,False
28,main,,,17,17,19,flash1,10,255,,yes,,blue,1067,False,False,True,18.271391242812026,22.415191967488262,4.143800724676237,0.01,0.01,8.69910609466318,13.259041525626445,21.958147620289626,8.0,18.143800724676236,26.143800724676236,0.4784565019681789,False
29,main,,,18,18,18,flash2,10,255,,yes,,blue,2221,False,False,True,17.657181288954057,21.800982013630293,4.143800724676236,0.009999999999999998,0.009999999999999998,8.576662586619978,12.730674901081422,21.3073374877014,9.0,17.143800724676236,26.143800724676236,0.4738661903419631,False
30,main,,,19,19,17,flash2,10,255,,no,,red,515,False,False,True,18.183366241998016,22.327166966674252,4.143800724676237,0.01,0.01,8.188078222804013,13.49606105366696,21.684139276470972,8.0,18.143800724676236,26.143800724676236,0.46249010964406,False
31,main,,,20,20,18,flash1,10,255,,no,,red,1146,False,False,True,18.687882162403014,22.83168288707925,4.143800724676237,0.01,0.01,7.725279757163204,14.229056752961515,21.95433651012472,8.0,19.143800724676236,27.143800724676236,0.4528786853607095,False
32,sanity,easy,high-interval control,4,20,50,flash1,10,255,yes,yes,True,blue,405,False,False,False,18.687882162403014,22.83168288707925,4.143800724676237,0.01,0.01,7.725279757163204,14.229056752961515,21.95433651012472,8.0,19.143800724676236,27.143800724676236,0.4528786853607095,False
33,main,,,21,21,19,flash1,10,255,,no,,red,2026,False,False,True,19.180209754468315,23.32401047914455,4.143800724676237,0.01,0.01,7.428464500881834,14.984576895370143,22.413041396251977,7.0,20.143800724676236,27.143800724676236,0.44449207181165945,False
34,main,,,22,22,19,flash2,10,255,,no,,red,708,False,False,True,19.61079122237056,23.754591947046794,4.143800724676237,0.01,0.01,7.3099817522583574,15.426646799139684,22.73662855139804,7.0,20.143800724676236,27.143800724676236,0.4374063138429974,False
35,main,,,23,23,20,flash2,10,255,,yes,,blue,644,False,False,True,19.217073853849087,23.360874578525323,4.143800724676237,0.01,0.01,7.05561140222569,15.155388820193291,22.21100022241898,7.0,20.143800724676236,27.143800724676236,0.43234480229021743,False
36,main,,,24,24,19,flash1,10,255,,yes,,blue,748,False,False,True,18.810588904464105,22.95438962914034,4.143800724676237,0.01,0.01,6.920315241455867,14.84215368117151,21.762468922627377,7.0,19.143800724676236,26.143800724676236,0.42766238009397356,False
37,main,,,25,25,19,flash2,10,255,,no,,red,702,False,False,True,19.19905663056001,23.342857355236244,4.143800724676237,0.01,0.01,6.6907686845968914,15.276981832396073,21.967750516992965,6.0,20.143800724676236,26.143800724676236,0.42128669385118717,False
38,sanity,zero,0 ms control,5,25,0,simultaneous,10,255,no,no,True,red,767,False,False,False,19.19905663056001,23.342857355236244,4.143800724676237,0.01,0.01,6.6907686845968914,15.276981832396073,21.967750516992965,6.0,20.143800724676236,26.143800724676236,0.42128669385118717,False
39,main,,,26,26,19,flash1,10,255,,yes,,blue,917,False,False,True,18.83135954778789,22.975160272464127,4.143800724676237,0.01,0.01,6.592931371356583,15.057128313001956,21.65005968435854,6.0,20.143800724676236,26.143800724676236,0.41695450610986245,False
40,main,,,27,27,19,flash1,10,255,,no,,red,731,False,False,True,19.18371587335895,23.327516598035185,4.143800724676237,0.01,0.01,6.469848206196316,15.397491879747994,21.86734008594431,6.0,20.143800724676236,26.143800724676236,0.4112534858362468,False
41,main,,,28,28,19,flash1,10,255,,no,,red,777,False,False,True,19.504160374394058,23.647961099070294,4.143800724676236,0.009999999999999998,0.009999999999999998,6.148836677617149,15.912162791286518,22.060999468903667,7.0,20.143800724676236,27.143800724676236,0.4061740200747601,False
42,main,,,29,29,19,flash2,10,255,,no,,red,410,False,False,True,19.797954864093427,23.941755588769666,4.14380072467624,0.010000000000000002,0.010000000000000002,6.212420669491745,16.197407991453574,22.40982866094532,6.0,21.143800724676236,27.143800724676236,0.4015954310898262,False
43,main,,,30,30,20,flash2,10,255,,no,,red,1671,False,False,True,20.106517346625743,24.25031807130198,4.143800724676237,0.01,0.01,6.134990373065914,16.541031554287198,22.676021927353112,6.0,21.143800724676236,27.143800724676236,0.397214230895851,False
44,sanity,easy,high-interval control,6,30,50,flash2,10,255,yes,yes,True,blue,372,False,False,False,20.106517346625743,24.25031807130198,4.143800724676237,0.01,0.01,6.134990373065914,16.541031554287198,22.676021927353112,6.0,21.143800724676236,27.143800724676236,0.397214230895851,False
45,main,,,31,31,20,flash1,10,255,,no,,red,841,False,False,True,20.391936406233576,24.535737130909812,4.143800724676238,0.01,0.01,5.835912896948713,17.020662201993964,22.856575098942677,5.0,22.143800724676236,27.143800724676236,0.3932107720522601,False
46,main,,,32,32,20,flash1,10,255,,yes,,blue,1850,False,False,True,20.09887810639597,24.242678831072205,4.143800724676237,0.01,0.01,5.902259800629992,16.667026260931454,22.569286061561446,6.0,21.143800724676236,27.143800724676236,0.389096500057338,False
47,main,,,33,33,20,flash1,10,255,,yes,,blue,1794,False,False,True,19.826495286459053,23.97029601113529,4.143800724676237,0.01,0.01,5.7365662715687264,16.400513693817047,22.137079965385773,6.0,21.143800724676236,27.143800724676236,0.38531427479818964,False
48,main,,,34,34,20,flash2,10,255,,yes,,blue,576,False,False,True,19.572162647176327,23.715963371852563,4.143800724676237,0.01,0.01,5.652991215591133,16.217880399926006,21.87087161551714,5.0,21.143800724676236,26.143800724676236,0.3818176889841088,False
49,main,,,35,35,20,flash1,10,255,,no,,red,626,False,False,True,19.837938565466363,23.9817392901426,4.143800724676237,0.01,0.01,5.487159391012224,16.508482788297226,21.99564217930945,6.0,21.143800724676236,27.143800724676236,0.3780095595923367,False
50,sanity,zero,0 ms control,7,35,0,simultaneous,10,255,no,no,True,red,451,False,False,False,19.837938565466363,23.9817392901426,4.143800724676237,0.01,0.01,5.487159391012224,16.508482788297226,21.99564217930945,6.0,21.143800724676236,27.143800724676236,0.3780095595923367,False
51,main,,,36,36,20,flash1,10,255,,yes,,blue,462,False,False,True,19.599423120492425,23.74322384516866,4.143800724676237,0.01,0.01,5.525308552627806,16.3077387905856,21.833047343213405,5.0,21.143800724676236,26.143800724676236,0.3747242180562892,False
52,main,,,37,37,20,flash1,10,255,,yes,,blue,454,False,False,True,19.374937289199657,23.518738013875893,4.143800724676237,0.01,0.01,5.459904861114204,16.164126768425096,21.6240316295393,5.0,21.143800724676236,26.143800724676236,0.3716584283369909,False
53,main,,,38,38,19,flash2,10,255,,yes,,blue,452,False,False,True,19.13386541180613,23.277666136482367,4.143800724676236,0.009999999999999998,0.009999999999999998,5.245888938014552,16.041515791732763,21.287404729747315,5.0,21.143800724676236,26.143800724676236,0.3686708250198148,False
54,main,,,39,39,19,flash2,10,255,,no,,red,541,False,False,True,19.353949141414176,23.497749866090412,4.143800724676237,0.01,0.01,5.32631444637914,16.2011663920984,21.52748083847754,5.0,21.143800724676236,26.143800724676236,0.3652228703590872,False
55,main,,,40,40,19,flash1,10,255,,yes,,blue,478,False,False,True,19.12704352305856,23.270844247734797,4.143800724676237,0.01,0.01,5.076508759759445,16.07853598244229,21.155044742201735,5.0,21.143800724676236,26.143800724676236,0.36238803530182107,False
56,sanity,easy,high-interval control,8,40,50,flash2,10,255,yes,yes,True,blue,368,False,False,False,19.12704352305856,23.270844247734797,4.143800724676237,0.01,0.01,5.076508759759445,16.07853598244229,21.155044742201735,5.0,21.143800724676236,26.143800724676236,0.36238803530182107,False
57,main,,,41,41,19,flash2,10,255,,no,,red,619,False,False,True,19.33517898439901,23.478979709075247,4.143800724676237,0.01,0.01,5.1864169364939805,16.237123760581603,21.423540697075584,5.0,21.143800724676236,26.143800724676236,0.3591458256622992,False
58,main,,,42,42,19,flash2,10,255,,yes,,blue,492,False,False,True,19.12087492099017,23.264675645666408,4.14380072467624,0.010000000000000002,0.010000000000000002,4.8947968350504105,16.113777654058985,21.008574489109396,5.0,21.143800724676236,26.143800724676236,0.3564492706247487,True
