session_trial_number,phase,sanity_kind,sanity_label,attempt_number,adaptive_completed_trials,requested_soa_ms,lead_led,flash_duration_ms,flash_rgb_level,expected_response,response,sanity_correct,button,rt_ms,timed_out,invalid,updated_staircase,threshold50_ms,threshold75_ms,jnd_ms,guess_rate,lapse_rate,ci50_width_ms,ci50_low_ms,ci50_high_ms,ci75_width_ms,ci75_low_ms,ci75_high_ms,entropy_normalized,early_stop_active
1,practice,,,1,,15,flash2,10,255,,yes,,blue,831,False,False,,,,,,,,,,,,,,
2,practice,,,2,,60,flash2,10,255,,yes,,blue,501,False,False,,,,,,,,,,,,,,
3,practice,,,3,,90,flash1,10,255,,yes,,blue,381,False,False,,,,,,,,,,,,,,
4,practice,,,4,,45,flash1,10,255,,yes,,blue,904,False,False,,,,,,,,,,,,,,
5,practice,,,5,,30,flash1,10,255,,no,,red,3402,False,False,,,,,,,,,,,,,,
6,practice,,,6,,0,simultaneous,10,255,,no,,red,1187,False,False,,,,,,,,,,,,,,
7,practice,,,7,,105,flash1,10,255,,yes,,blue,753,False,False,,,,,,,,,,,,,,
8,practice,,,8,,75,flash1,10,255,,yes,,blue,567,False,False,,,,,,,,,,,,,,
9,main,,,1,1,50,flash2,10,255,,yes,,blue,493,False,False,True,25.605115511551155,29.74891623622739,4.143800724676236,0.009999999999999998,0.009999999999999998,53.5954423575619,0.2752525252525254,53.870694882814426,54.0,5.143800724676237,59.14380072467624,0.8826418150914577,False
10,main,,,2,2,25,flash1,10,255,,yes,,blue,531,False,False,True,13.206891205422329,17.350691930098566,4.143800724676239,0.010000000000000005,0.010000000000000005,30.786563286938577,0.0,30.786563286938577,31.000000000000004,4.143800724676237,35.14380072467624,0.7554124071884618,False
11,main,,,3,3,14,flash1,10,255,,no,,red,750,False,False,True,19.789758457579033,23.93355918225527,4.143800724676236,0.009999999999999995,0.009999999999999995,28.734140014750892,5.397942011640694,34.132082026391586,29.000000000000004,10.143800724676236,39.14380072467624,0.7360146045112566,False
12,main,,,4,4,20,flash2,10,255,,yes,,blue,485,False,False,True,15.615224162899358,19.759024887575595,4.143800724676238,0.010000000000000002,0.010000000000000002,22.10818406953882,3.5746057602928825,25.6827898298317,22.0,8.143800724676236,30.143800724676236,0.6787324590038513,False
13,main,,,5,5,15,flash1,10,255,,yes,,blue,530,False,False,True,12.447461926418558,16.591262651094794,4.143800724676238,0.010000000000000002,0.010000000000000002,19.136413440621816,1.871606346916828,21.008019787538643,19.0,7.143800724676237,26.143800724676236,0.6472277309362658,False
14,sanity,zero,0 ms control,1,5,0,simultaneous,10,255,no,no,True,red,774,False,False,False,12.447461926418558,16.591262651094794,4.143800724676238,0.010000000000000002,0.010000000000000002,19.136413440621816,1.871606346916828,21.008019787538643,19.0,7.143800724676237,26.143800724676236,0.6472277309362658,False
15,main,,,6,6,12,flash1,10,255,,no,,red,894,False,False,True,14.726256662151178,18.870057386827416,4.143800724676238,0.010000000000000002,0.010000000000000002,16.076270835546133,6.049209792887863,22.125480628433998,16.0,11.143800724676236,27.143800724676236,0.6122246332747722,False
16,main,,,7,7,15,flash2,10,255,,yes,,blue,1298,False,False,True,12.988669343418636,17.13247006809487,4.143800724676236,0.009999999999999997,0.009999999999999997,14.723020440596688,4.885610409034347,19.608630849631034,15.0,9.143800724676236,24.143800724676236,0.5918294858334879,False
17,main,,,8,8,13,flash1,10,255,,no,,red,701,False,False,True,14.515219248694832,18.659019973371066,4.143800724676236,0.009999999999999998,0.009999999999999998,13.08673513355311,7.412964253619604,20.499699387172715,13.0,12.143800724676236,25.143800724676236,0.566503136177386,False
18,main,,,9,9,14,flash1,10,255,,yes,,blue,1262,False,False,True,13.19607598896716,17.3398767136434,4.14380072467624,0.010000000000000002,0.010000000000000002,12.203702200908818,6.470010838351946,18.673713039260765,12.0,11.143800724676236,23.143800724676236,0.55107534339616,False
19,main,,,10,10,13,flash1,10,255,,no,,red,731,False,False,True,14.267441938190782,18.411242662867018,4.143800724676237,0.01,0.01,11.215157634633739,8.143890220823915,19.359047855457653,11.0,13.143800724676236,24.143800724676236,0.5335322358866177,False
20,sanity,easy,high-interval control,2,10,50,flash1,10,255,yes,yes,True,blue,739,False,False,False,14.267441938190782,18.411242662867018,4.143800724676237,0.01,0.01,11.215157634633739,8.143890220823915,19.359047855457653,11.0,13.143800724676236,24.143800724676236,0.5335322358866177,False
21,main,,,11,11,14,flash1,10,255,,no,,red,766,False,False,True,15.185383591931144,19.329184316607382,4.143800724676237,0.009999999999999997,0.009999999999999997,10.533720506684912,9.407154144960277,19.94087465164519,10.0,14.143800724676236,24.143800724676236,0.5201348283847856,False
22,main,,,12,12,15,flash1,10,255,,yes,,blue,743,False,False,True,14.320089710962947,18.463890435639186,4.14380072467624,0.010000000000000002,0.010000000000000002,9.957201922465321,8.83497523825316,18.79217716071848,10.0,13.143800724676236,23.143800724676236,0.5079316393342329,False
23,main,,,13,13,14,flash2,10,255,,no,,red,843,False,False,True,15.054467206895131,19.198267931571365,4.143800724676234,0.009999999999999995,0.009999999999999995,9.484591080993347,9.84484225445788,19.329433335451228,10.0,14.143800724676236,24.143800724676236,0.49718287314137594,False
24,main,,,14,14,15,flash2,10,255,,no,,red,640,False,False,True,15.746410851511131,19.89021157618737,4.143800724676237,0.009999999999999998,0.009999999999999998,9.108442449426255,10.724998801107882,19.833441250534136,9.0,15.143800724676236,24.143800724676236,0.4880586169715198,False
25,main,,,15,15,16,flash1,10,255,,no,,red,823,False,False,True,16.41065228078686,20.554453005463095,4.143800724676236,0.009999999999999998,0.009999999999999998,8.844427933168577,11.53760430336582,20.382032236534396,9.0,16.143800724676236,25.143800724676236,0.48017937810953093,False
26,sanity,zero,0 ms control,3,15,0,simultaneous,10,255,no,no,True,red,595,False,False,False,16.41065228078686,20.554453005463095,4.143800724676236,0.009999999999999998,0.009999999999999998,8.844427933168577,11.53760430336582,20.382032236534396,9.0,16.143800724676236,25.143800724676236,0.48017937810953093,False
27,main,,,16,16,16,flash2,10,255,,yes,,blue,1114,False,False,True,15.779064517443915,19.922865242120153,4.143800724676238,0.010000000000000002,0.010000000000000002,8.415740306802423,11.124783380788156,19.54052368759058,8.0,16.143800724676236,24.143800724676236,0.4702012119137111,False
28,main,,,17,17,16,flash2,10,255,,no,,red,1096,False,False,True,16.34587620109975,20.489676925775985,4.143800724676237,0.01,0.01,8.074535992193992,11.843651391599169,19.91818738379316,8.0,16.143800724676236,24.143800724676236,0.4632721487750981,False
29,main,,,18,18,16,flash2,10,255,,yes,,blue,945,False,False,True,15.8045387931452,19.948339517821438,4.143800724676238,0.01,0.01,7.864781222071741,11.368961562554162,19.233742784625903,8.0,16.143800724676236,24.143800724676236,0.4548627154065869,False
30,main,,,19,19,16,flash1,10,255,,no,,red,553,False,False,True,16.29874316765279,20.44254389232903,4.14380072467624,0.010000000000000005,0.010000000000000005,7.605341235186616,12.066475524513658,19.671816759700274,7.0,17.143800724676236,24.143800724676236,0.4486923368629489,False
31,main,,,20,20,16,flash2,10,255,,yes,,blue,584,False,False,True,15.82487466558041,19.968675390256646,4.143800724676237,0.01,0.01,7.331849622811507,11.629850313583017,18.961699936394524,8.0,16.143800724676236,24.143800724676236,0.44142091264251165,False
32,sanity,easy,high-interval control,4,20,50,flash2,10,255,yes,yes,True,blue,704,False,False,False,15.82487466558041,19.968675390256646,4.143800724676237,0.01,0.01,7.331849622811507,11.629850313583017,18.961699936394524,8.0,16.143800724676236,24.143800724676236,0.44142091264251165,False
33,main,,,21,21,16,flash1,10,255,,no,,red,536,False,False,True,16.262903693246034,20.40670441792227,4.143800724676238,0.010000000000000002,0.010000000000000002,7.225551427676333,12.186136667580346,19.41168809525668,7.0,17.143800724676236,24.143800724676236,0.4358655809927005,False
34,main,,,22,22,16,flash2,10,255,,yes,,blue,488,False,False,True,15.841445613735461,19.9852463384117,4.143800724676238,0.009999999999999998,0.009999999999999998,6.916281460861821,11.924560883985482,18.840842344847303,6.0,17.143800724676236,23.143800724676236,0.4294589685611285,False
35,main,,,23,23,16,flash1,10,255,,yes,,blue,616,False,False,True,15.46348457366602,19.607285298342255,4.143800724676235,0.009999999999999998,0.009999999999999998,6.881861524144011,11.519684339114661,18.401545863258672,7.0,16.143800724676236,23.143800724676236,0.4238125429305652,False
36,main,,,24,24,15,flash2,10,255,,yes,,blue,649,False,False,True,15.075243984931792,19.219044709608028,4.143800724676236,0.009999999999999998,0.009999999999999998,6.649835865799734,11.225797087463139,17.875632953262873,6.0,16.143800724676236,22.143800724676236,0.4185347084437963,False
37,main,,,25,25,15,flash1,10,255,,yes,,blue,1075,False,False,True,14.72199030266599,18.865791027342226,4.143800724676237,0.01,0.01,6.480845108655222,11.032135174577109,17.51298028323233,6.0,16.143800724676236,22.143800724676236,0.4137862889074558,False
38,sanity,zero,0 ms control,5,25,0,simultaneous,10,255,no,yes,False,blue,530,False,False,False,14.72199030266599,18.865791027342226,4.143800724676237,0.01,0.01,6.480845108655222,11.032135174577109,17.51298028323233,6.0,16.143800724676236,22.143800724676236,0.4137862889074558,False
39,main,,,26,26,15,flash1,10,255,,yes,,blue,677,False,False,True,14.398197157413744,18.54199788208998,4.143800724676236,0.009999999999999998,0.009999999999999998,6.309657786863763,10.674505897123474,16.984163683987237,7.0,15.143800724676236,22.143800724676236,0.4094771140071863,False
40,main,,,27,27,14,flash1,10,255,,yes,,blue,515,False,False,True,14.058961555509608,18.202762280185844,4.143800724676237,0.01,0.01,6.356248041342742,10.356356057403662,16.712604098746404,6.0,15.143800724676236,21.143800724676236,0.4053899941446649,False
41,main,,,28,28,14,flash2,10,255,,yes,,blue,983,False,False,True,13.74533614745771,17.889136872133946,4.143800724676237,0.01,0.01,6.1708799442642,10.146555555386417,16.317435499650617,6.0,15.143800724676236,21.143800724676236,0.401638051084937,False
42,main,,,29,29,14,flash1,10,255,,no,,red,809,False,False,True,14.056024725624923,18.19982545030116,4.143800724676237,0.01,0.01,6.134229537900371,10.47329239752099,16.60752193542136,6.0,15.143800724676236,21.143800724676236,0.3966669351555961,False
43,main,,,30,30,14,flash2,10,255,,yes,,blue,463,False,False,True,13.766044935462931,17.90984566013917,4.143800724676238,0.010000000000000002,0.010000000000000002,5.934236848032183,10.246381209744607,16.18061805777679,6.0,15.143800724676236,21.143800724676236,0.3931489684844402,False
44,sanity,easy,high-interval control,6,30,50,flash2,10,255,yes,yes,True,blue,529,False,False,False,13.766044935462931,17.90984566013917,4.143800724676238,0.010000000000000002,0.010000000000000002,5.934236848032183,10.246381209744607,16.18061805777679,6.0,15.143800724676236,21.143800724676236,0.3931489684844402,False
45,main,,,31,31,14,flash1,10,255,,no,,red,918,False,False,True,14.053289601579328,18.197090326255566,4.143800724676238,0.01,0.01,5.9023405449729935,10.595610856003248,16.49795140097624,6.0,15.143800724676236,21.143800724676236,0.3885944535189557,False
46,main,,,32,32,14,flash2,10,255,,no,,red,1028,False,False,True,14.319298737249904,18.46309946192614,4.143800724676238,0.010000000000000002,0.010000000000000002,5.673614603350188,11.036106919142131,16.70972152249232,5.0,16.143800724676236,21.143800724676236,0.3844333344123398,False
47,main,,,33,33,14,flash1,10,255,,no,,red,1030,False,False,True,14.5669398872989,18.710740611975137,4.143800724676237,0.01,0.01,5.632637954013234,11.22620026496211,16.858838218975343,5.0,16.143800724676236,21.143800724676236,0.38060502954353953,False
48,main,,,34,34,15,flash2,10,255,,yes,,blue,1114,False,False,True,14.331247666834827,18.475048391511063,4.143800724676237,0.01,0.01,5.551738194108562,11.09434736592462,16.646085560033182,5.0,16.143800724676236,21.143800724676236,0.3773513329959123,False
49,main,,,35,35,14,flash1,10,255,,no,,red,1016,False,False,True,14.56323641032166,18.707037134997897,4.143800724676238,0.009999999999999998,0.009999999999999998,5.513480341406844,11.287851800812124,16.801332142218968,5.0,16.143800724676236,21.143800724676236,0.3737761968321662,False
50,sanity,zero,0 ms control,7,35,0,simultaneous,10,255,no,no,True,red,521,False,False,False,14.56323641032166,18.707037134997897,4.143800724676238,0.009999999999999998,0.009999999999999998,5.513480341406844,11.287851800812124,16.801332142218968,5.0,16.143800724676236,21.143800724676236,0.3737761968321662,False
51,main,,,36,36,15,flash1,10,255,,yes,,blue,1753,False,False,True,14.341714909490134,18.48551563416637,4.143800724676235,0.009999999999999998,0.009999999999999998,5.430862195553333,11.150714752545833,16.581576948099165,5.0,16.143800724676236,21.143800724676236,0.37070585332364914,False
52,main,,,37,37,14,flash1,10,255,,no,,red,1310,False,False,True,14.559917114372457,18.703717839048693,4.143800724676237,0.01,0.01,5.394493379649607,11.349785719320405,16.74427909897001,5.0,16.143800724676236,21.143800724676236,0.36735241273979846,False
53,main,,,38,38,15,flash1,10,255,,no,,red,626,False,False,True,14.793646409680129,18.937447134356365,4.143800724676237,0.01,0.01,5.213889853642808,11.665996096235737,16.879885949878545,5.0,16.143800724676236,21.143800724676236,0.36406135368820347,False
54,main,,,39,39,15,flash2,10,255,,yes,,blue,512,False,False,True,14.58450737181172,18.728308096487957,4.143800724676238,0.01,0.01,5.265280208796666,11.443385098792584,16.70866530758925,5.0,16.143800724676236,21.143800724676236,0.3611304678213852,False
55,main,,,40,40,15,flash1,10,255,,no,,red,852,False,False,True,14.80482779026654,18.948628514942776,4.143800724676237,0.01,0.01,5.052006625849332,11.79315579625691,16.84516242210624,4.0,17.143800724676236,21.143800724676236,0.3580276370507704,False
56,sanity,easy,high-interval control,8,40,50,flash2,10,255,yes,yes,True,blue,556,False,False,False,14.80482779026654,18.948628514942776,4.143800724676237,0.01,0.01,5.052006625849332,11.79315579625691,16.84516242210624,4.0,17.143800724676236,21.143800724676236,0.3580276370507704,False
57,main,,,41,41,15,flash2,10,255,,no,,red,761,False,False,True,15.013282918053896,19.157083642730132,4.143800724676237,0.01,0.01,4.878989028854701,12.067912128506826,16.946901157361527,4.0,17.143800724676236,21.143800724676236,0.3551133684813084,True
